ax,ay,az,gx,gy,gz,mx,my,mz
997,-9,16878,-0.001067,0.014405,-0.006402,58,27,-146
989,-19,16874,-0.001067,0.014405,-0.005869,58,27,-146
982,-31,16882,-0.001067,0.014405,-0.006402,58,27,-146
982,-21,16905,-0.001067,0.014405,-0.005869,58,27,-146
984,-28,16902,-0.001067,0.014405,-0.005869,58,27,-146
994,-34,16900,-0.001067,0.014405,-0.006402,58,26,-146
998,-42,16907,-0.001067,0.014405,-0.006402,58,27,-146
991,-36,16901,-0.001067,0.014405,-0.006402,58,27,-146
993,-35,16898,-0.001067,0.014405,-0.006402,58,27,-146
990,-28,16881,-0.001067,0.014405,-0.006402,58,26,-146
999,-18,16885,-0.001067,0.014405,-0.006402,58,26,-146
1007,-20,16880,-0.001067,0.014405,-0.006402,58,27,-146
1014,-15,16877,-0.001067,0.014405,-0.006402,58,27,-146
1013,-13,16862,-0.001067,0.014405,-0.006402,58,27,-146
1016,2,16850,-0.001067,0.014405,-0.006402,58,27,-146
1025,-6,16840,-0.001067,0.014405,-0.006402,58,27,-146
1024,-2,16843,-0.001067,0.014405,-0.005869,58,27,-146
1032,-4,16835,-0.001067,0.014405,-0.005869,58,27,-146
1036,0,16818,-0.001067,0.014405,-0.005869,58,27,-146
1035,4,16817,-0.001067,0.014405,-0.005869,58,27,-147
1042,5,16822,-0.001067,0.014939,-0.005869,58,27,-147
1034,9,16836,-0.001067,0.014939,-0.005869,58,27,-147
1033,-6,16845,-0.001067,0.014939,-0.005869,58,27,-147
1028,-8,16857,-0.001067,0.014939,-0.005869,58,27,-147
1021,-8,16865,-0.001067,0.014939,-0.005869,58,27,-147
1021,-12,16872,-0.001067,0.014939,-0.005869,58,27,-147
1022,-23,16867,-0.001067,0.014939,-0.005869,58,27,-147
1019,-31,16859,-0.001067,0.014939,-0.005869,58,27,-146
1009,-33,16849,-0.001067,0.014939,-0.005869,58,26,-146
1009,-40,16848,-0.001067,0.014939,-0.005869,58,26,-146
1004,-33,16859,-0.001067,0.014405,-0.005869,58,26,-146
1002,-35,16858,-0.001067,0.014405,-0.005869,57,26,-146
1014,-38,16859,-0.001067,0.014405,-0.005869,58,26,-146
1018,-38,16872,-0.001067,0.014405,-0.005869,58,26,-146
1011,-31,16882,-0.001067,0.014405,-0.005869,58,26,-146
1019,-34,16878,-0.001067,0.014405,-0.005869,58,27,-146
1020,-36,16879,-0.001067,0.014405,-0.006402,58,27,-146
1030,-29,16875,-0.001067,0.014405,-0.005869,58,27,-146
1030,-22,16871,-0.001067,0.014405,-0.005869,58,27,-146
1037,-16,16868,-0.001067,0.014405,-0.005869,58,27,-146
1026,-16,16853,-0.001067,0.014405,-0.005869,58,27,-146
1020,-15,16836,-0.001067,0.014405,-0.005869,58,27,-146
1019,-15,16836,-0.001067,0.014405,-0.005869,58,27,-146
1008,-11,16849,-0.001067,0.014405,-0.005869,58,27,-146
1004,-5,16840,-0.001067,0.014405,-0.005869,58,27,-146
1000,-8,16848,-0.001067,0.014405,-0.006402,58,27,-146
990,-20,16830,-0.001067,0.014405,-0.006402,58,27,-146
988,-14,16840,-0.001067,0.014405,-0.006402,59,27,-146
998,-12,16848,-0.001067,0.014405,-0.006402,58,27,-146
992,-8,16863,-0.001067,0.014405,-0.006402,58,27,-146
986,-10,16878,-0.001067,0.014405,-0.006402,58,27,-146
987,-6,16883,-0.001067,0.014405,-0.006402,58,26,-146
986,-6,16891,-0.001067,0.014405,-0.006402,58,26,-146
982,-2,16883,-0.001067,0.014405,-0.006402,58,27,-146
984,-1,16895,-0.001067,0.014405,-0.006402,58,27,-146
980,-10,16890,-0.001067,0.014405,-0.006402,58,27,-146
981,21,16897,-0.001067,0.014939,-0.006402,58,27,-146
991,23,16895,-0.001067,0.014939,-0.006402,58,27,-146
997,20,16877,-0.001067,0.014939,-0.006402,58,27,-146
996,16,16885,-0.001067,0.014939,-0.006402,58,27,-146
996,46,16894,-0.001067,0.014939,-0.006402,58,27,-146
993,34,16910,-0.001067,0.014939,-0.006402,57,27,-146
1007,36,16903,-0.001067,0.014939,-0.005869,58,27,-146
1010,34,16904,-0.001067,0.014939,-0.005869,58,27,-146
1003,1,16894,-0.001067,0.014939,-0.005869,58,27,-146
1000,-5,16882,-0.001067,0.014939,-0.005869,58,27,-146
1006,0,16885,-0.001067,0.014405,-0.005869,58,27,-146
1016,-2,16875,-0.001067,0.014405,-0.005869,57,27,-147
1018,-35,16879,-0.001067,0.014405,-0.005869,58,27,-147
1025,-28,16876,-0.001067,0.014405,-0.005869,58,27,-146
1017,-17,16881,-0.001067,0.014405,-0.005869,58,27,-146
1021,-15,16885,-0.001067,0.014405,-0.005869,58,27,-146
1024,-8,16884,-0.001067,0.014939,-0.005869,58,27,-146
1025,6,16867,-0.001067,0.014939,-0.005869,58,27,-146
1016,2,16864,-0.001067,0.014405,-0.005869,59,27,-146
1011,-1,16851,-0.001067,0.014939,-0.005869,58,27,-146
1012,5,16829,-0.001067,0.014939,-0.005869,58,27,-146
1013,4,16822,-0.001067,0.014939,-0.005869,58,27,-146
1017,-6,16826,-0.001067,0.014405,-0.005869,58,27,-146
1004,-12,16811,-0.000534,0.014405,-0.005869,58,27,-146
1006,-13,16813,-0.000534,0.014405,-0.005869,58,27,-146
1009,-34,16850,-0.000534,0.014939,-0.005869,58,27,-146
1011,-31,16850,-0.000534,0.014939,-0.005869,58,27,-146
1010,-27,16860,-0.000534,0.014405,-0.005869,58,27,-146
1012,-33,16864,-0.000534,0.014405,-0.006402,58,27,-146
1010,-6,16860,-0.000534,0.014405,-0.006402,58,27,-146
1005,-10,16861,-0.000534,0.014405,-0.005869,58,27,-146
1013,4,16873,-0.000534,0.014939,-0.005869,58,27,-146
1007,3,16882,-0.001067,0.014939,-0.005869,58,27,-146
1006,13,16865,-0.001067,0.014405,-0.005869,58,27,-146
1014,16,16886,-0.001067,0.014405,-0.005869,57,27,-146
1011,18,16889,-0.001067,0.014405,-0.005869,57,27,-146
1011,15,16909,-0.001067,0.014939,-0.005869,57,27,-146
1009,-17,16907,-0.001067,0.014405,-0.005869,57,27,-146
1018,-15,16929,-0.001067,0.014405,-0.005869,57,27,-146
1023,-23,16914,-0.001067,0.014405,-0.005869,58,27,-146
1030,-21,16901,-0.001067,0.014405,-0.005869,57,27,-146
1031,-17,16912,-0.001067,0.014405,-0.005869,58,27,-146
1016,14,16899,-0.001067,0.014405,-0.005869,58,27,-146
1016,12,16906,-0.001067,0.014405,-0.005869,58,27,-146
1011,13,16892,-0.001067,0.014405,-0.005869,58,27,-146
1013,27,16887,-0.001067,0.014405,-0.005869,58,27,-146
1006,30,16868,-0.001067,0.014405,-0.005869,58,27,-146
1002,32,16875,-0.001067,0.014939,-0.005869,58,27,-146
1006,20,16866,-0.001067,0.014939,-0.005869,58,27,-147
1004,14,16871,-0.001067,0.014939,-0.005869,58,27,-146
985,-18,16872,-0.001067,0.014939,-0.006402,59,27,-146
992,-19,16836,-0.001067,0.014939,-0.006402,59,27,-146
999,-11,16841,-0.001067,0.014939,-0.006402,59,27,-146
993,-19,16854,-0.001067,0.014939,-0.006402,58,27,-147
996,-30,16837,-0.001067,0.014939,-0.006402,59,27,-146
997,-32,16848,-0.001067,0.014939,-0.006402,59,27,-147
988,-23,16857,-0.001067,0.014939,-0.006402,58,27,-147
981,-13,16851,-0.001067,0.014939,-0.006402,58,27,-147
1012,-14,16860,-0.001067,0.014939,-0.005869,58,27,-147
1005,-17,16886,-0.001067,0.015473,-0.005869,58,27,-146
985,-18,16884,-0.001067,0.017073,-0.005869,58,26,-146
987,-20,16882,-0.001067,0.018674,-0.005869,58,26,-146
974,-10,16888,-0.001067,0.019207,-0.006402,58,27,-146
1261,-87,16863,-0.002134,0.018674,-0.02721,57,27,-146
1456,-119,16863,-0.003735,0.01654,-0.067759,55,27,-146
1748,-136,16815,-0.004802,0.01814,-0.073095,52,27,-147
1894,-157,16841,-0.003735,0.019207,-0.048552,48,27,-147
2031,-84,16823,-0.003201,0.019207,-0.03468,42,26,-146
2205,-121,16864,-0.002668,0.017073,-0.02561,34,26,-145
2329,-99,16872,-0.003201,0.015473,-0.037348,26,25,-141
2444,-36,16888,-0.003735,0.015473,-0.046951,17,24,-136
2264,-34,16870,-0.003735,0.016006,-0.035747,9,23,-129
2109,83,16873,-0.002134,0.019207,-0.000534,2,22,-121
1924,3,16899,-0.002134,0.017607,-0.005869,-2,20,-111
1803,15,16865,-0.004268,0.01654,-0.053354,-4,19,-101
1705,-10,16888,-0.005869,0.016006,-0.086433,-5,18,-91
1632,4,16872,-0.00747,0.016006,-0.12005,-3,17,-82
1489,1,16880,-0.00907,0.016006,-0.14512,-1,17,-75
1398,-158,16852,-0.009604,0.015473,-0.15579,2,16,-69
1252,-17,16867,-0.010137,0.014405,-0.15686,6,16,-64
1316,-167,16859,-0.010137,0.013872,-0.14832,9,16,-61
1180,-29,16886,-0.008537,0.012805,-0.099238,12,17,-59
1130,19,16877,-0.006402,0.012271,-0.050152,15,17,-58
928,-135,16863,-0.005869,0.012271,-0.031479,18,17,-57
804,-36,16829,-0.005335,0.013338,-0.01654,22,18,-58
551,-114,16815,-0.003201,0.011738,0.025076,25,19,-58
405,6,16851,-0.001601,0.012271,0.06189,29,19,-60
267,-42,16883,0,0.013338,0.082698,33,18,-63
-69,-22,16919,-0.000534,0.013872,0.066159,37,17,-66
-214,-86,16909,-0.002668,0.014939,0.009604,42,16,-69
-373,-190,16945,-0.003735,0.014939,-0.020274,46,14,-72
-257,-100,16977,-0.003201,0.014939,-0.020808,50,12,-75
-342,-206,17005,-0.002668,0.014405,-0.013338,53,9,-78
-140,-148,16990,-0.002668,0.01654,-0.016006,56,7,-81
-23,-188,16968,-0.003201,0.016006,-0.031479,58,4,-83
156,-211,16953,-0.003201,0.014939,-0.041082,60,3,-84
391,-180,16926,-0.002668,0.013338,-0.027744,61,1,-85
599,-180,16941,-0.001601,0.013338,-0.003735,61,0,-86
829,-126,16918,-0.000534,0.012271,0.017607,62,0,-86
857,-112,16917,0.001067,0.011204,0.056555,62,-1,-86
992,-80,16884,0.003735,0.010671,0.11311,62,-1,-87
1058,-99,16891,0.006402,0.009604,0.17607,62,-1,-87
1082,-100,16891,0.008537,0.00907,0.23102,63,-1,-87
1087,-106,16899,0.010137,0.00907,0.26517,63,-2,-87
1078,-98,16909,0.011204,0.009604,0.27904,63,-2,-87
1049,-84,16909,0.011204,0.009604,0.27691,63,-3,-87
1007,-76,16900,0.010671,0.010671,0.25983,63,-3,-87
1030,-75,16880,0.00907,0.012271,0.22302,64,-4,-88
1023,-83,16893,0.006936,0.013338,0.16753,64,-4,-88
1034,-72,16892,0.004268,0.013872,0.10297,64,-4,-88
1023,-67,16896,0.001601,0.014939,0.046418,64,-4,-88
1020,-60,16892,0,0.015473,0.011738,64,-4,-88
1029,-66,16865,-0.000534,0.015473,-0.002134,64,-4,-87
1028,-73,16867,-0.000534,0.015473,-0.005335,65,-4,-87
1031,-79,16870,-0.000534,0.015473,-0.006402,65,-4,-88
1026,-90,16864,-0.000534,0.015473,-0.006402,65,-4,-88
1022,-98,16864,-0.000534,0.015473,-0.006402,64,-4,-88
1022,-92,16875,-0.000534,0.015473,-0.006402,64,-4,-87
1025,-91,16870,-0.000534,0.015473,-0.006402,64,-4,-88
1016,-92,16872,-0.000534,0.015473,-0.006402,64,-4,-88
1009,-78,16893,-0.000534,0.015473,-0.006402,64,-4,-88
1009,-81,16875,-0.000534,0.015473,-0.006402,64,-4,-88
998,-74,16866,-0.000534,0.015473,-0.005869,64,-4,-88
1014,-67,16869,-0.001067,0.015473,-0.006402,64,-4,-88
1013,-60,16871,-0.000534,0.015473,-0.006402,64,-4,-88
1017,-61,16870,-0.000534,0.015473,-0.006402,64,-4,-88
1014,-59,16883,-0.000534,0.015473,-0.006402,64,-4,-88
1020,-64,16883,-0.000534,0.015473,-0.006402,64,-4,-88
1029,-79,16904,-0.000534,0.015473,-0.005869,64,-4,-87
1031,-81,16898,-0.000534,0.015473,-0.005869,64,-4,-87
1037,-83,16908,-0.000534,0.015473,-0.006402,64,-4,-87
1029,-77,16903,-0.000534,0.015473,-0.006402,64,-4,-87
1029,-77,16896,-0.000534,0.015473,-0.006402,64,-4,-88
1022,-73,16890,-0.000534,0.015473,-0.006402,64,-4,-87
1022,-73,16881,-0.000534,0.015473,-0.006402,64,-4,-87
1021,-67,16882,-0.000534,0.015473,-0.006402,64,-4,-87
1013,-63,16850,-0.000534,0.015473,-0.006402,64,-4,-87
1006,-57,16848,-0.000534,0.015473,-0.006402,64,-4,-87
997,-60,16854,-0.000534,0.015473,-0.006402,64,-4,-87
999,-60,16855,-0.000534,0.015473,-0.005869,63,-4,-87
999,-53,16855,-0.001067,0.015473,-0.006402,64,-4,-87
1010,-58,16859,-0.001067,0.015473,-0.006402,64,-4,-87
1014,-52,16848,-0.001067,0.015473,-0.006402,64,-4,-87
1016,-47,16845,-0.001067,0.015473,-0.006402,64,-5,-87
1013,-52,16844,-0.000534,0.015473,-0.006402,64,-4,-87
1017,-50,16862,-0.001067,0.015473,-0.006402,64,-4,-87
1020,-44,16848,-0.001067,0.015473,-0.006402,64,-4,-87
1014,-55,16853,-0.000534,0.015473,-0.006402,64,-4,-88
1024,-57,16845,-0.001067,0.015473,-0.006402,64,-5,-87
1011,-56,16855,-0.001067,0.015473,-0.006402,64,-5,-88
1006,-56,16862,-0.000534,0.015473,-0.006402,64,-5,-88
1001,-70,16879,-0.000534,0.015473,-0.006402,64,-5,-87
1019,-78,16897,-0.000534,0.015473,-0.006402,64,-4,-88
1009,-75,16912,-0.000534,0.015473,-0.006402,64,-4,-88
1009,-78,16919,-0.000534,0.015473,-0.006402,64,-4,-88
1008,-70,16910,-0.000534,0.015473,-0.006402,64,-4,-88
999,-69,16912,-0.000534,0.015473,-0.006402,63,-4,-88
1001,-70,16914,-0.000534,0.014939,-0.006402,63,-4,-87
1004,-76,16917,-0.000534,0.015473,-0.006402,63,-4,-88
1000,-65,16900,-0.001067,0.014939,-0.006402,63,-4,-87
989,-46,16889,-0.001067,0.014939,-0.006402,63,-4,-87
1004,-48,16882,-0.000534,0.014939,-0.005869,64,-4,-87
1004,-45,16873,-0.000534,0.014939,-0.006402,64,-4,-87
1017,-40,16874,-0.001067,0.014939,-0.005869,64,-4,-88
1020,-43,16885,-0.001067,0.014939,-0.005869,64,-4,-88
1019,-44,16862,-0.001067,0.014939,-0.005869,64,-4,-88
1022,-40,16867,-0.001067,0.014939,-0.005869,64,-4,-88
1033,-43,16863,-0.001067,0.015473,-0.005869,64,-4,-88
1019,-71,16870,-0.001067,0.014939,-0.005869,64,-4,-88
1015,-70,16858,-0.001067,0.014939,-0.005869,64,-5,-88
1016,-77,16875,-0.001067,0.015473,-0.005869,64,-4,-88
1005,-87,16887,-0.001067,0.015473,-0.006402,64,-4,-88
1000,-88,16889,-0.001067,0.014939,-0.006402,63,-4,-88
1004,-95,16898,-0.001067,0.014939,-0.006402,63,-5,-88
1000,-99,16887,-0.001067,0.014939,-0.006402,63,-5,-87
998,-100,16900,-0.001067,0.014939,-0.006402,63,-4,-87
1014,-74,16887,-0.001067,0.014939,-0.006402,63,-5,-88
1020,-83,16878,-0.001067,0.014939,-0.006402,63,-4,-87
1028,-83,16865,-0.001067,0.014939,-0.006402,63,-5,-87
1029,-73,16845,-0.001067,0.014939,-0.006402,63,-5,-87
1028,-69,16840,-0.001067,0.014939,-0.006402,64,-4,-87
1019,-67,16878,-0.001067,0.015473,-0.005869,64,-4,-87
1024,-64,16890,-0.001067,0.015473,-0.005869,64,-4,-87
1022,-67,16877,-0.000534,0.015473,-0.005869,64,-4,-87
1022,-71,16898,-0.000534,0.015473,-0.005869,64,-4,-87
1017,-64,16904,-0.000534,0.015473,-0.005869,65,-4,-87
1016,-66,16895,-0.000534,0.015473,-0.005869,65,-4,-87
1024,-72,16911,-0.000534,0.015473,-0.005869,65,-4,-87
1033,-76,16914,-0.000534,0.015473,-0.005869,65,-4,-87
1048,-72,16871,-0.001067,0.015473,-0.005869,64,-4,-87
1051,-75,16866,-0.001067,0.014939,-0.005869,64,-4,-88
1049,-76,16858,-0.001067,0.014939,-0.005869,64,-4,-88
1053,-70,16844,-0.001067,0.015473,-0.005869,64,-4,-88
1053,-73,16845,-0.001067,0.015473,-0.005869,63,-4,-88
1051,-67,16872,-0.001067,0.015473,-0.005869,63,-4,-88
1044,-71,16870,-0.001067,0.015473,-0.005869,63,-4,-88
1043,-67,16868,-0.001067,0.015473,-0.005869,63,-4,-88
1032,-67,16899,-0.001067,0.015473,-0.005869,63,-4,-88
1025,-71,16893,-0.001067,0.015473,-0.006402,63,-4,-88
1031,-71,16906,-0.001067,0.015473,-0.006402,63,-5,-88
1028,-73,16898,-0.001067,0.015473,-0.005869,63,-5,-88
1027,-71,16885,-0.000534,0.015473,-0.005869,63,-5,-88
1027,-68,16859,-0.000534,0.015473,-0.005869,63,-5,-88
1031,-66,16844,-0.000534,0.015473,-0.005869,63,-4,-88
1025,-73,16856,-0.001067,0.015473,-0.005869,63,-5,-88
1029,-71,16827,-0.001067,0.015473,-0.005869,63,-5,-88
1043,-62,16817,-0.000534,0.015473,-0.005869,63,-5,-88
1049,-53,16814,-0.001067,0.015473,-0.005869,63,-5,-88
1046,-59,16831,-0.001067,0.015473,-0.005869,63,-4,-88
1076,-64,16844,-0.001067,0.015473,-0.005869,63,-4,-88
1071,-65,16865,-0.001067,0.015473,-0.005869,64,-4,-88
1066,-66,16891,-0.001067,0.015473,-0.005869,63,-4,-88
1069,-55,16895,-0.001067,0.015473,-0.005869,63,-4,-88
1040,-55,16902,-0.001067,0.015473,-0.005869,64,-4,-88
1030,-54,16912,-0.001067,0.015473,-0.005869,64,-4,-88
1018,-59,16923,-0.001067,0.014939,-0.005869,63,-4,-88
1014,-58,16912,-0.001067,0.014939,-0.005869,63,-4,-87
995,-60,16907,-0.001067,0.014939,-0.005869,63,-4,-87
996,-61,16899,-0.001067,0.014939,-0.005869,63,-4,-87
1005,-57,16897,-0.000534,0.015473,-0.005869,64,-4,-87
1005,-63,16896,-0.000534,0.015473,-0.005869,64,-4,-87
1029,-54,16898,-0.000534,0.015473,-0.006402,64,-4,-87
1024,-63,16903,-0.000534,0.015473,-0.006402,64,-4,-87
1028,-66,16894,-0.000534,0.015473,-0.006402,64,-4,-87
1034,-55,16894,-0.000534,0.015473,-0.006402,64,-4,-88
1022,-45,16905,-0.000534,0.015473,-0.006402,64,-4,-87
1021,-60,16907,-0.000534,0.015473,-0.005869,63,-4,-87
1016,-60,16892,-0.000534,0.015473,-0.005869,64,-4,-87
1028,-67,16888,-0.000534,0.015473,-0.005869,63,-4,-87
1027,-83,16892,-0.000534,0.015473,-0.005869,63,-3,-87
1034,-94,16893,-0.000534,0.014939,-0.005869,63,-4,-87
1037,-92,16889,-0.000534,0.015473,-0.005869,64,-4,-87
1034,-97,16895,-0.000534,0.014939,-0.005869,64,-4,-87
1038,-108,16886,-0.000534,0.014939,-0.005869,64,-3,-87
1037,-96,16886,-0.000534,0.014939,-0.005869,64,-4,-87
1027,-92,16885,-0.000534,0.014939,-0.005869,64,-4,-87
1015,-100,16880,-0.000534,0.014939,-0.006402,65,-4,-87
1020,-96,16868,-0.000534,0.014939,-0.006402,64,-4,-87
1017,-85,16865,-0.001067,0.014939,-0.006402,64,-4,-87
1015,-84,16869,-0.001067,0.014939,-0.006402,64,-4,-87
1013,-86,16864,-0.001067,0.014939,-0.006402,64,-4,-87
1010,-77,16856,-0.001067,0.014939,-0.006402,64,-4,-87
1018,-76,16841,-0.001067,0.014939,-0.006402,64,-4,-87
1028,-81,16844,-0.001067,0.014939,-0.006402,64,-4,-87
1014,-68,16850,-0.001067,0.014939,-0.005869,64,-4,-87
1007,-75,16874,-0.001067,0.014939,-0.005869,64,-4,-88
1012,-79,16871,-0.001067,0.014939,-0.005869,64,-4,-88
1005,-80,16869,-0.001067,0.015473,-0.005869,64,-4,-88
1005,-85,16861,-0.001067,0.015473,-0.005869,64,-4,-88
997,-91,16874,-0.001067,0.015473,-0.005869,64,-4,-88
1018,-91,16886,-0.001067,0.015473,-0.005869,64,-4,-88
1015,-98,16887,-0.001067,0.015473,-0.005869,64,-4,-88
1040,-95,16868,-0.001067,0.015473,-0.005869,64,-4,-88
1042,-80,16856,-0.001067,0.015473,-0.005869,64,-4,-88
1036,-66,16869,-0.001067,0.015473,-0.005869,64,-4,-88
1032,-63,16846,-0.001067,0.015473,-0.005869,64,-4,-88
1035,-66,16862,-0.001067,0.015473,-0.005869,64,-4,-88
1039,-58,16867,-0.001067,0.015473,-0.005869,64,-4,-88
1011,-56,16862,-0.001067,0.015473,-0.005869,63,-4,-88
1019,-51,16877,-0.001067,0.015473,-0.005869,63,-4,-88
1007,-47,16890,-0.001067,0.015473,-0.005869,64,-4,-88
1010,-56,16886,-0.001067,0.015473,-0.005869,64,-4,-88
1004,-60,16871,-0.001067,0.015473,-0.005869,64,-4,-88
1014,-54,16891,-0.000534,0.015473,-0.005869,64,-4,-88
1017,-44,16891,-0.000534,0.015473,-0.005869,64,-4,-88
1030,-53,16886,-0.000534,0.015473,-0.005869,64,-4,-87
1036,-49,16900,-0.000534,0.015473,-0.006402,64,-5,-87
1031,-51,16884,-0.001067,0.015473,-0.006402,64,-4,-87
1032,-56,16866,-0.001067,0.016006,-0.006402,64,-4,-87
1040,-61,16852,-0.000534,0.016006,-0.006402,64,-4,-87
1046,-67,16856,-0.000534,0.015473,-0.006402,64,-5,-88
1046,-72,16873,-0.001067,0.015473,-0.006402,64,-5,-87
1040,-70,16867,-0.001067,0.015473,-0.006402,63,-4,-87
1033,-63,16858,-0.001067,0.015473,-0.006402,64,-5,-88
1026,-69,16850,-0.001067,0.015473,-0.006402,64,-4,-87
1029,-64,16856,-0.001067,0.015473,-0.006402,64,-5,-87
1029,-66,16872,-0.001067,0.015473,-0.006402,64,-5,-87
1015,-61,16896,-0.001067,0.015473,-0.006402,64,-5,-87
1019,-57,16886,-0.001067,0.015473,-0.005869,64,-5,-87
1017,-57,16887,-0.001067,0.015473,-0.005869,64,-4,-87
1021,-50,16894,-0.001067,0.015473,-0.005869,64,-5,-87
1017,-54,16910,-0.001067,0.015473,-0.005869,64,-5,-87
1020,-52,16914,-0.001067,0.015473,-0.005869,64,-5,-87
1020,-59,16921,-0.001067,0.015473,-0.005869,64,-5,-87
1017,-58,16947,-0.001067,0.015473,-0.005869,64,-5,-87
1026,-55,16926,-0.001067,0.015473,-0.005869,64,-5,-87
1015,-52,16938,-0.001067,0.015473,-0.005869,64,-4,-87
1015,-50,16931,-0.001067,0.015473,-0.005869,64,-4,-88
1014,-63,16935,-0.001067,0.015473,-0.005869,64,-4,-88
1011,-66,16919,-0.001067,0.015473,-0.005869,64,-4,-88
1004,-73,16928,-0.001067,0.014939,-0.005869,64,-4,-88
1001,-71,16913,-0.001067,0.014939,-0.005869,64,-4,-88
1000,-74,16886,-0.001067,0.014939,-0.005869,64,-4,-87
996,-64,16895,-0.001067,0.014939,-0.005869,64,-4,-87
1009,-58,16900,-0.001067,0.014939,-0.005869,64,-4,-88
1008,-62,16886,-0.000534,0.014939,-0.005869,63,-4,-87
1010,-60,16877,-0.001067,0.014939,-0.005869,63,-4,-87
1023,-55,16897,-0.000534,0.014939,-0.005869,63,-4,-87
1032,-45,16897,-0.001067,0.014939,-0.005869,63,-4,-87
1025,-44,16900,-0.001067,0.014939,-0.005869,63,-4,-87
1031,-43,16903,-0.001067,0.014939,-0.005869,63,-4,-87
1030,-57,16912,-0.001067,0.014939,-0.005869,63,-4,-87
1028,-64,16911,-0.001067,0.014939,-0.005869,63,-4,-87
1026,-68,16927,-0.001067,0.014939,-0.005869,63,-5,-87
1027,-65,16924,-0.001067,0.014939,-0.005869,63,-4,-87
1013,-60,16910,-0.001067,0.014939,-0.005869,63,-4,-87
1006,-69,16893,-0.001067,0.015473,-0.006402,64,-5,-87
1017,-63,16898,-0.001067,0.015473,-0.006402,63,-5,-88
984,-67,16897,-0.001067,0.015473,-0.006402,63,-4,-88
991,-67,16895,-0.000534,0.015473,-0.006402,63,-4,-88
995,-67,16883,-0.000534,0.015473,-0.006402,64,-4,-88
1003,-61,16864,-0.000534,0.015473,-0.006402,63,-4,-88
1000,-62,16856,-0.000534,0.015473,-0.006402,63,-4,-88
1005,-70,16853,-0.001067,0.015473,-0.006402,63,-4,-88
1012,-71,16861,-0.001067,0.015473,-0.006402,63,-4,-87
1011,-76,16852,-0.001067,0.015473,-0.006402,63,-4,-87
1044,-70,16857,-0.001067,0.015473,-0.006402,63,-4,-87
1048,-73,16847,-0.001067,0.015473,-0.006402,64,-4,-87
1045,-68,16842,-0.001067,0.015473,-0.006402,64,-4,-87
1037,-74,16860,-0.001067,0.015473,-0.006402,64,-4,-87
1040,-69,16870,-0.001067,0.015473,-0.006402,64,-4,-87
1036,-65,16882,-0.001067,0.015473,-0.006402,64,-4,-87
1036,-66,16879,-0.000534,0.015473,-0.006402,64,-4,-87
1033,-70,16886,-0.000534,0.015473,-0.006402,64,-4,-87
1025,-75,16879,-0.000534,0.015473,-0.006402,65,-4,-87
1010,-71,16889,-0.000534,0.015473,-0.006402,64,-4,-87
1013,-72,16892,-0.000534,0.015473,-0.006402,64,-4,-87
1011,-66,16883,-0.000534,0.015473,-0.006402,64,-4,-88
1002,-66,16881,-0.000534,0.015473,-0.006402,64,-4,-88
1004,-75,16863,-0.000534,0.015473,-0.006402,64,-4,-88
1005,-70,16873,-0.001067,0.015473,-0.006402,64,-4,-88
1005,-64,16874,-0.001067,0.015473,-0.006402,64,-4,-88
1008,-57,16869,-0.001067,0.015473,-0.006402,63,-5,-88
1017,-57,16874,-0.001067,0.015473,-0.006402,64,-5,-88
1005,-56,16896,-0.001067,0.015473,-0.006402,64,-4,-88
1008,-56,16894,-0.001067,0.015473,-0.006402,64,-4,-88
1015,-65,16896,-0.001067,0.015473,-0.006402,64,-4,-88
1019,-66,16908,-0.001067,0.015473,-0.006402,64,-4,-87
1014,-65,16916,-0.001067,0.015473,-0.006402,64,-4,-87
1014,-70,16912,-0.001067,0.015473,-0.006402,64,-4,-87
1016,-69,16908,-0.001067,0.015473,-0.006402,64,-4,-87
1013,-78,16906,-0.001067,0.015473,-0.006402,64,-4,-87
1018,-87,16893,-0.001067,0.015473,-0.006402,64,-4,-87
