ax,ay,az,gx,gy,gz,mx,my,mz
1043,263,16578,0.054421,0.3612,-0.11418,50,37,-23
1043,259,16567,0.054421,0.3612,-0.11418,50,37,-23
1037,293,16577,0.054421,0.3612,-0.11418,50,37,-23
1043,295,16594,0.054421,0.3612,-0.11418,50,37,-23
1046,299,16612,0.054421,0.3612,-0.11418,50,37,-23
1048,300,16620,0.054421,0.3612,-0.11418,49,37,-24
1055,290,16655,0.054421,0.3612,-0.11418,50,37,-24
1063,281,16682,0.054421,0.3612,-0.11418,50,37,-24
1053,277,16688,0.054421,0.3612,-0.11418,50,37,-23
1059,271,16698,0.054421,0.3612,-0.11418,50,37,-24
1063,239,16685,0.054421,0.3612,-0.11418,50,37,-24
1063,238,16664,0.054421,0.3612,-0.11418,50,37,-24
1054,227,16657,0.054421,0.3612,-0.11418,50,37,-24
1052,229,16631,0.054421,0.3612,-0.11418,50,37,-24
1044,228,16629,0.054421,0.3612,-0.11418,50,37,-24
1039,225,16607,0.054421,0.3612,-0.11418,50,36,-24
1045,221,16618,0.054421,0.36067,-0.11418,50,36,-24
1044,221,16617,0.054421,0.36067,-0.11418,50,37,-24
1043,223,16615,0.054421,0.3612,-0.11418,50,37,-24
1046,226,16627,0.054421,0.3612,-0.11418,50,37,-24
1044,202,16629,0.054421,0.3612,-0.11418,49,37,-24
1044,199,16645,0.054421,0.3612,-0.11418,50,37,-23
1051,201,16644,0.054421,0.3612,-0.11418,49,37,-23
1052,216,16649,0.054421,0.3612,-0.11418,49,37,-23
1051,223,16654,0.054421,0.3612,-0.11418,49,37,-23
1055,219,16640,0.054421,0.3612,-0.11418,49,37,-23
1053,215,16643,0.053887,0.3612,-0.11418,49,37,-23
1054,221,16640,0.053887,0.3612,-0.11418,49,36,-23
1056,253,16633,0.054421,0.3612,-0.11418,49,37,-23
1060,250,16640,0.054421,0.3612,-0.11418,49,37,-23
1056,261,16646,0.054421,0.3612,-0.11418,50,37,-23
1058,253,16634,0.054421,0.36067,-0.11418,49,36,-23
1064,257,16615,0.054421,0.36067,-0.11418,50,36,-23
1052,260,16644,0.054421,0.36067,-0.11418,49,36,-23
1051,255,16644,0.054421,0.36067,-0.11364,50,37,-22
1043,247,16651,0.054421,0.36067,-0.11364,50,37,-22
1046,242,16648,0.054421,0.36067,-0.11418,50,36,-22
1044,254,16636,0.054421,0.3612,-0.11418,50,36,-23
1073,254,16631,0.054421,0.3612,-0.11418,49,36,-23
1069,259,16617,0.054421,0.3612,-0.11364,50,36,-23
1066,257,16609,0.054421,0.3612,-0.11364,49,37,-23
1075,251,16588,0.054421,0.3612,-0.11364,49,37,-23
1081,261,16605,0.054421,0.3612,-0.11364,50,37,-23
1083,237,16604,0.054421,0.3612,-0.11418,50,37,-24
1081,240,16617,0.054421,0.3612,-0.11418,49,37,-23
1089,236,16620,0.054421,0.3612,-0.11418,49,37,-23
1060,224,16610,0.054421,0.36067,-0.11418,49,37,-23
1061,214,16624,0.054421,0.3612,-0.11418,50,37,-23
1062,208,16622,0.054421,0.3612,-0.11418,50,37,-23
1061,208,16620,0.054421,0.36067,-0.11418,50,37,-23
1063,196,16595,0.054421,0.36067,-0.11418,50,37,-23
1061,224,16585,0.054421,0.36067,-0.11418,50,36,-23
1066,225,16584,0.054421,0.36067,-0.11418,50,36,-24
1053,222,16582,0.053887,0.36067,-0.11418,50,36,-24
1057,227,16577,0.054421,0.3612,-0.11418,50,36,-24
1064,223,16594,0.054421,0.3612,-0.11418,50,36,-24
1063,224,16593,0.054421,0.3612,-0.11418,50,36,-24
1065,228,16614,0.054421,0.3612,-0.11418,50,36,-24
1063,241,16639,0.054421,0.3612,-0.11418,50,37,-24
1061,244,16646,0.054421,0.3612,-0.11418,50,37,-23
1057,241,16635,0.054421,0.3612,-0.11418,50,37,-23
1053,245,16681,0.054421,0.36067,-0.11418,50,37,-23
1051,248,16694,0.054421,0.36014,-0.11418,50,37,-23
1047,255,16677,0.054421,0.3596,-0.11418,50,37,-23
1039,263,16693,0.054421,0.35907,-0.11364,49,37,-23
1045,273,16674,0.054421,0.35854,-0.11418,49,37,-23
1035,270,16634,0.054421,0.358,-0.11418,49,37,-23
1047,273,16627,0.054421,0.35854,-0.11418,49,37,-24
1049,277,16628,0.054421,0.35854,-0.11418,49,37,-24
1057,277,16590,0.054421,0.35907,-0.11418,49,37,-24
1061,272,16583,0.054421,0.36014,-0.11418,49,37,-24
1061,271,16592,0.054421,0.36067,-0.11418,49,37,-24
1065,271,16590,0.054421,0.3612,-0.11418,49,37,-24
1059,259,16592,0.054954,0.36174,-0.11418,49,37,-24
1069,253,16616,0.054954,0.36227,-0.11418,49,37,-24
1062,252,16612,0.054954,0.36334,-0.11418,50,37,-23
1059,254,16615,0.054954,0.3628,-0.11418,50,37,-23
1056,251,16613,0.054954,0.3628,-0.11418,50,37,-23
1059,251,16627,0.054421,0.36227,-0.11418,50,36,-23
1060,247,16635,0.054421,0.3612,-0.11418,50,37,-24
1059,246,16657,0.054421,0.3612,-0.11418,50,36,-24
1060,249,16647,0.054421,0.36067,-0.11418,50,37,-24
1046,251,16670,0.054421,0.36067,-0.11418,50,37,-23
1047,248,16673,0.053887,0.36014,-0.11418,50,37,-24
1052,215,16663,0.053887,0.3596,-0.11418,50,36,-24
1056,221,16661,0.053887,0.3596,-0.11418,50,36,-24
1059,221,16654,0.053887,0.36014,-0.11418,50,36,-24
1060,225,16649,0.054421,0.36067,-0.11364,50,36,-24
1064,225,16614,0.054421,0.3612,-0.11364,50,36,-24
1059,219,16631,0.053887,0.3612,-0.11364,50,36,-24
1064,221,16620,0.053887,0.36067,-0.11364,50,36,-24
1074,213,16630,0.053887,0.36014,-0.11364,50,36,-24
1071,242,16638,0.053887,0.36014,-0.11364,50,36,-24
1074,242,16630,0.053887,0.36067,-0.11364,50,37,-24
1070,241,16625,0.053887,0.36067,-0.11364,50,37,-24
1069,238,16626,0.053887,0.3612,-0.11418,50,37,-24
1067,238,16633,0.053887,0.36174,-0.11418,50,37,-24
1041,242,16628,0.054421,0.36227,-0.11418,50,37,-24
1047,241,16594,0.054421,0.36334,-0.11418,50,37,-24
1039,245,16591,0.054954,0.36441,-0.11418,50,37,-24
1040,246,16581,0.054954,0.36441,-0.11418,50,37,-24
1035,243,16584,0.054954,0.36494,-0.11418,50,37,-24
1031,275,16579,0.054954,0.36441,-0.11418,50,37,-24
1031,275,16568,0.054954,0.36441,-0.11418,50,37,-24
1021,273,16570,0.054954,0.36334,-0.11418,50,36,-23
1042,279,16565,0.054954,0.3628,-0.11418,50,36,-23
1068,280,16601,0.054421,0.36227,-0.11471,50,37,-23
1067,279,16578,0.054421,0.36174,-0.11471,50,37,-23
1074,278,16593,0.054421,0.36174,-0.11471,50,37,-23
1068,279,16590,0.054421,0.36174,-0.11471,50,37,-23
1058,246,16615,0.054421,0.3612,-0.11418,50,36,-23
1054,248,16619,0.054421,0.36174,-0.11418,50,36,-23
1062,249,16623,0.054421,0.36174,-0.11418,50,36,-23
1068,241,16623,0.054421,0.36174,-0.11418,51,36,-23
1038,238,16614,0.054421,0.36174,-0.11418,50,36,-23
1036,231,16648,0.054421,0.36174,-0.11418,50,36,-23
1040,232,16649,0.054421,0.36174,-0.11418,50,36,-23
1050,237,16653,0.054421,0.36174,-0.11418,50,37,-23
1059,241,16645,0.054421,0.36174,-0.11418,50,37,-23
1067,227,16657,0.054421,0.3612,-0.11418,50,37,-23
1066,224,16648,0.054421,0.36067,-0.11418,50,37,-23
1072,224,16649,0.054421,0.3596,-0.11418,50,37,-23
1071,222,16653,0.054421,0.35854,-0.11418,50,37,-23
1077,225,16645,0.054421,0.35747,-0.11418,50,37,-23
1068,221,16643,0.053887,0.35694,-0.11418,51,36,-23
1079,218,16629,0.053887,0.3564,-0.11418,51,36,-23
1081,219,16630,0.053887,0.3564,-0.11364,51,35,-23
1083,227,16610,0.053887,0.3564,-0.11364,51,35,-22
1091,215,16638,0.053887,0.35694,-0.11364,51,35,-22
1090,209,16623,0.053887,0.358,-0.11364,51,35,-22
1108,212,16597,0.053887,0.3596,-0.11364,52,34,-22
1119,227,16650,0.053887,0.36067,-0.11364,51,34,-22
1126,231,16682,0.054421,0.36174,-0.11364,51,34,-21
1127,241,16724,0.054421,0.3628,-0.11364,51,34,-22
1129,211,16730,0.054421,0.36334,-0.11418,51,34,-21
1129,217,16756,0.054421,0.36441,-0.11418,51,34,-21
1127,234,16737,0.054954,0.36494,-0.11418,51,34,-22
1121,260,16749,0.054954,0.36547,-0.11418,51,34,-21
1114,256,16778,0.054954,0.36494,-0.11418,51,34,-21
1099,238,16743,0.054954,0.36441,-0.11418,51,34,-21
1091,225,16709,0.054421,0.3628,-0.11418,51,35,-22
1085,207,16682,0.054421,0.36227,-0.11418,51,35,-21
1087,238,16658,0.054421,0.36174,-0.11418,51,35,-21
1081,236,16655,0.054421,0.36067,-0.11418,51,35,-21
1076,237,16652,0.054421,0.36014,-0.11418,51,35,-21
1079,212,16650,0.054421,0.35907,-0.11418,51,35,-21
1071,214,16644,0.054421,0.35854,-0.11418,51,35,-22
1076,223,16619,0.053887,0.35854,-0.11418,52,35,-21
1074,232,16612,0.054421,0.35907,-0.11418,51,35,-21
1064,239,16615,0.054421,0.3596,-0.11418,51,35,-22
1046,241,16639,0.054421,0.36014,-0.11418,51,35,-22
1045,249,16630,0.054954,0.36067,-0.11418,51,35,-21
1046,252,16623,0.054954,0.36067,-0.11418,51,35,-21
1050,265,16628,0.054954,0.3612,-0.11418,51,35,-22
1056,266,16630,0.054954,0.3612,-0.11418,51,35,-22
1054,265,16629,0.054954,0.36227,-0.11418,51,35,-22
1049,274,16651,0.054954,0.36227,-0.11364,51,35,-21
1058,268,16648,0.054954,0.36227,-0.11364,51,35,-22
1076,262,16630,0.054421,0.36227,-0.11364,51,35,-22
1081,256,16633,0.054421,0.36174,-0.11364,51,35,-22
1085,254,16650,0.054421,0.36227,-0.11364,51,35,-22
1074,254,16644,0.054421,0.36227,-0.11364,51,35,-21
1066,259,16648,0.054421,0.3628,-0.11364,51,35,-21
1061,256,16663,0.054421,0.3628,-0.11364,51,35,-22
1069,254,16639,0.054421,0.36334,-0.11364,51,34,-22
1051,259,16638,0.054421,0.36334,-0.11364,51,34,-21
1050,267,16632,0.054421,0.36334,-0.11364,51,34,-22
1048,271,16642,0.054954,0.36387,-0.11418,51,34,-22
1046,269,16628,0.054954,0.36387,-0.11418,51,34,-22
1053,272,16629,0.054954,0.36387,-0.11418,51,35,-22
1051,266,16618,0.054954,0.36334,-0.11418,51,35,-22
1053,264,16602,0.054954,0.36387,-0.11418,51,35,-22
1053,254,16625,0.054954,0.36387,-0.11418,51,35,-22
1063,252,16641,0.054421,0.36387,-0.11418,52,36,-22
1060,240,16656,0.054421,0.36387,-0.11418,52,36,-22
1057,239,16643,0.054421,0.36334,-0.11418,52,36,-21
1053,239,16654,0.054421,0.36334,-0.11418,52,35,-21
1051,239,16651,0.054421,0.36387,-0.11418,52,35,-21
1054,242,16665,0.054421,0.36387,-0.11418,52,35,-22
1059,253,16671,0.054421,0.36334,-0.11418,52,35,-21
1053,284,16670,0.054421,0.36334,-0.11418,51,35,-22
1049,281,16666,0.054421,0.3628,-0.11418,51,35,-21
1047,284,16654,0.054421,0.3628,-0.11418,51,35,-21
1037,276,16658,0.053887,0.36334,-0.11418,51,35,-21
1064,276,16653,0.053887,0.36334,-0.11418,52,35,-22
1068,265,16647,0.053887,0.36334,-0.11418,51,35,-21
1070,255,16645,0.053887,0.36387,-0.11418,51,35,-21
1063,249,16639,0.054421,0.36387,-0.11418,51,35,-21
1077,218,16625,0.053887,0.36494,-0.11418,51,35,-22
1081,250,16614,0.053887,0.36547,-0.11418,51,35,-22
1081,252,16612,0.053887,0.36547,-0.11418,51,35,-22
1083,256,16608,0.053887,0.36547,-0.11364,51,35,-22
1048,257,16610,0.054421,0.36547,-0.11364,51,35,-22
1013,262,16636,0.054421,0.36547,-0.11418,52,34,-22
1005,268,16631,0.054421,0.36547,-0.11418,51,34,-22
994,269,16623,0.053887,0.36601,-0.11418,52,35,-21
1104,266,16801,0.053887,0.37934,-0.11364,52,35,-21
931,229,16709,0.054954,0.47111,-0.10191,52,35,-21
853,248,16842,0.054421,0.54848,-0.076829,52,35,-21
662,239,16928,0.054421,0.72401,-0.064558,53,35,-21
216,240,16905,0.054421,0.99184,-0.06029,54,35,-20
-496,239,16777,0.056555,1.3008,-0.061357,55,35,-20
-1402,249,16621,0.059756,1.5979,-0.065625,57,35,-19
-2414,227,16468,0.06189,1.9607,-0.065091,59,35,-18
-3924,221,15732,0.066159,2.4169,-0.080564,62,35,-17
-5436,304,14981,0.074162,2.856,-0.091768,65,35,-14
-7302,237,13550,0.10564,3.2957,-0.12912,67,34,-11
-9142,269,11859,0.11524,3.587,-0.14139,70,35,-7
-10740,310,10060,0.10671,3.754,-0.14085,72,35,-2
-11861,396,7839,0.07096,3.7678,-0.13552,74,35,2
-13102,386,5975,0.032546,3.5491,-0.12965,75,35,6
-14237,414,4146,0.017607,3.1825,-0.13018,76,35,10
-15002,442,2681,0.013338,2.713,-0.11524,77,36,13
-15478,376,1502,0.003735,2.1827,-0.11524,77,36,16
-15696,437,749,-0.02721,1.6716,-0.10297,77,36,17
-15807,428,333,-0.03628,1.2015,-0.10244,77,36,18
-15908,403,91,-0.028811,0.76989,-0.10777,77,36,19
-16202,332,366,0.005335,0.44817,-0.11151,77,36,18
-16207,343,355,0.040015,0.36654,-0.11364,78,36,18
-16202,352,317,0.052287,0.36974,-0.11311,78,36,19
-16204,352,326,0.053354,0.36707,-0.11364,77,36,18
-16203,356,305,0.054954,0.36814,-0.11364,77,36,18
-16201,362,307,0.056021,0.3628,-0.11418,78,36,18
-16211,359,259,0.057622,0.36921,-0.11364,78,36,18
-16208,357,295,0.058155,0.36761,-0.11418,78,36,18
-16207,356,289,0.058689,0.37401,-0.11418,78,36,18
-16206,363,271,0.059756,0.37988,-0.11364,78,36,19
-16223,363,227,0.06029,0.38575,-0.11364,78,35,19
-16228,363,198,0.06029,0.38788,-0.11364,78,35,19
-16227,366,185,0.059223,0.38735,-0.11364,78,36,19
-16220,364,174,0.058155,0.39002,-0.11364,78,35,19
-16216,369,178,0.056555,0.38895,-0.11364,77,35,19
-16224,366,132,0.055488,0.39002,-0.11364,77,35,19
-16224,375,111,0.054954,0.38468,-0.11364,77,35,18
-16220,369,116,0.054954,0.37721,-0.11364,77,35,18
-16211,370,114,0.054421,0.37188,-0.11364,77,35,18
-16204,363,113,0.054421,0.36654,-0.11364,77,35,18
-16208,364,113,0.053887,0.358,-0.11364,77,35,18
-16213,354,119,0.053354,0.34787,-0.11364,77,35,18
-16219,352,120,0.05282,0.34413,-0.11364,77,35,18
-16209,343,136,0.05282,0.33986,-0.11364,77,35,18
-16208,339,163,0.05282,0.3372,-0.11364,78,36,18
-16219,336,133,0.052287,0.34093,-0.11364,77,35,18
-16211,340,162,0.052287,0.33933,-0.11364,77,35,18
-16221,346,151,0.052287,0.34626,-0.11364,78,35,18
-16212,346,134,0.05282,0.35374,-0.11364,77,35,18
-16209,351,135,0.05282,0.3596,-0.11364,77,35,18
-16200,351,142,0.05282,0.3612,-0.11364,78,35,18
-16214,362,137,0.05282,0.36227,-0.11364,78,35,18
-16213,356,142,0.052287,0.36227,-0.11364,78,35,18
-16216,360,157,0.051753,0.36174,-0.11364,78,35,18
-16216,346,167,0.05122,0.36174,-0.11364,78,35,18
-16214,343,156,0.050152,0.36014,-0.11364,78,35,18
-16211,333,201,0.049619,0.3564,-0.11364,78,35,18
-16211,332,182,0.049085,0.3548,-0.11364,78,35,19
-16213,336,195,0.049085,0.35374,-0.11364,78,35,19
-16211,336,200,0.049085,0.35374,-0.11364,78,35,19
-16211,336,196,0.049619,0.35213,-0.11364,78,35,19
-16208,336,198,0.049619,0.3516,-0.11418,77,35,19
-16212,336,212,0.049619,0.34947,-0.11364,77,35,19
-16215,344,239,0.050152,0.34947,-0.11364,77,35,19
-16222,346,218,0.050152,0.3516,-0.11364,77,35,19
-16230,342,226,0.050152,0.35427,-0.11364,77,35,19
-16225,331,239,0.049619,0.3484,-0.11364,77,35,19
-16229,329,238,0.048552,0.33613,-0.11418,77,35,19
-16229,322,327,0.045884,0.31425,-0.11471,77,35,19
-16226,321,398,0.045351,0.30412,-0.11471,78,35,19
-16234,327,422,0.045884,0.30305,-0.11524,78,35,19
-16214,336,493,0.044817,0.29611,-0.11471,77,35,18
-16224,333,538,0.041082,0.29558,-0.11471,77,36,18
-16201,335,651,0.037881,0.28918,-0.11418,77,36,18
-16214,344,693,0.037348,0.29451,-0.11418,77,36,18
-16210,348,765,0.037881,0.30465,-0.11364,77,36,18
-16219,356,744,0.041082,0.33026,-0.11311,77,36,18
-16218,354,750,0.041616,0.33773,-0.11258,77,36,18
-16210,345,740,0.041616,0.33933,-0.11258,77,36,18
-16238,338,710,0.043216,0.3372,-0.11311,78,36,18
-16227,341,732,0.046418,0.32546,-0.11311,78,36,18
-16227,350,743,0.048018,0.31852,-0.11364,78,36,18
-16226,351,776,0.047485,0.31959,-0.11364,78,36,17
-16222,351,801,0.046418,0.32119,-0.11364,78,36,17
-16214,352,813,0.045884,0.32066,-0.11364,78,36,17
-16214,357,832,0.044817,0.31905,-0.11364,78,36,17
-16193,364,929,0.042683,0.31745,-0.11311,78,36,17
-16183,353,956,0.041616,0.32652,-0.11364,78,36,17
-16182,346,1002,0.042683,0.32919,-0.11364,78,35,17
-16218,347,984,0.044284,0.32386,-0.11364,78,35,17
-16222,349,1001,0.045351,0.27584,-0.11364,78,36,18
-16254,341,1060,0.046418,0.18194,-0.11471,78,35,17
-16203,359,1357,0.04375,0.041082,-0.11471,78,35,17
-16202,351,1610,0.039482,-0.10991,-0.11524,79,35,16
-16099,366,2049,0.037881,-0.36334,-0.11631,79,35,14
-15860,387,2857,0.042683,-0.72294,-0.12111,78,35,12
-15476,358,3861,0.064558,-1.1418,-0.13765,78,35,9
-14856,356,5078,0.068826,-1.5595,-0.14459,77,36,5
-13917,339,6524,0.06936,-1.9976,-0.14886,76,35,1
-12550,304,8204,0.065625,-2.4457,-0.14566,74,36,-3
-10831,288,9898,0.060823,-2.8144,-0.12165,71,35,-7
-8861,279,11589,0.06189,-3.0886,-0.10938,68,35,-11
-7027,288,12823,0.062957,-3.102,-0.10404,65,35,-14
-5101,268,14013,0.058155,-2.8304,-0.098171,63,35,-17
-3341,297,14946,0.035747,-2.4271,-0.082165,60,35,-19
-1798,280,15691,0.030945,-1.9986,-0.074695,58,34,-20
-574,277,16176,0.031479,-1.5152,-0.070427,56,34,-21
242,309,16402,0.035747,-0.9737,-0.073095,55,34,-21
620,302,16395,0.044284,-0.46578,-0.097637,55,34,-21
798,297,16409,0.049085,-0.03628,-0.10938,54,34,-21
996,260,16650,0.051753,0.23582,-0.11364,54,34,-21
985,249,16621,0.053354,0.32172,-0.11418,54,34,-21
1000,240,16616,0.054421,0.34733,-0.11418,54,34,-22
1009,238,16607,0.054421,0.35427,-0.11418,54,34,-22
1010,234,16630,0.054421,0.35694,-0.11418,54,34,-22
1014,229,16631,0.054421,0.358,-0.11418,54,34,-22
1015,213,16624,0.054421,0.35854,-0.11364,55,34,-22
1020,220,16643,0.054421,0.35907,-0.11418,55,34,-22
1024,227,16633,0.054421,0.3596,-0.11418,55,34,-22
1025,238,16645,0.054421,0.3596,-0.11418,55,34,-21
1020,251,16657,0.054421,0.36014,-0.11418,55,35,-21
1030,258,16669,0.054421,0.36014,-0.11418,55,35,-22
1029,270,16637,0.054421,0.36014,-0.11418,54,35,-22
1028,274,16641,0.054421,0.36014,-0.11418,54,35,-22
1035,282,16635,0.054421,0.36014,-0.11418,54,35,-21
1033,285,16631,0.054421,0.36014,-0.11418,54,35,-22
1042,285,16649,0.054421,0.36014,-0.11418,54,35,-22
1043,282,16646,0.054421,0.36014,-0.11418,54,34,-22
1042,281,16653,0.054421,0.36014,-0.11418,54,34,-22
1034,282,16655,0.054421,0.36014,-0.11418,54,34,-22
1040,285,16676,0.054421,0.36067,-0.11418,54,34,-22
1041,283,16643,0.054421,0.36067,-0.11418,54,34,-22
1038,286,16640,0.054421,0.36067,-0.11418,54,34,-22
1036,277,16628,0.054421,0.36067,-0.11418,54,34,-21
1028,268,16624,0.054421,0.36067,-0.11418,54,34,-21
1029,261,16620,0.054421,0.36067,-0.11418,54,34,-21
1030,256,16600,0.054421,0.36067,-0.11418,54,35,-21
1026,248,16595,0.054421,0.36067,-0.11418,54,35,-21
1025,237,16595,0.054421,0.36067,-0.11418,54,35,-21
1030,231,16616,0.054421,0.36067,-0.11418,54,35,-21
1035,233,16619,0.054421,0.36067,-0.11418,54,35,-21
1043,222,16630,0.054421,0.36014,-0.11418,53,35,-21
1040,220,16623,0.054421,0.36014,-0.11418,54,34,-21
1045,225,16627,0.054421,0.36014,-0.11418,54,34,-21
1049,227,16635,0.054421,0.36067,-0.11471,54,34,-21
1054,229,16629,0.054421,0.36067,-0.11471,54,34,-21
1062,232,16623,0.054421,0.36067,-0.11471,54,34,-21
1065,238,16620,0.054421,0.36067,-0.11471,54,34,-21
1059,225,16628,0.054421,0.36067,-0.11471,54,34,-21
1056,237,16624,0.054421,0.36067,-0.11471,54,34,-22
1057,243,16594,0.054421,0.36067,-0.11471,53,34,-22
1056,236,16594,0.054421,0.3612,-0.11418,53,34,-22
1054,238,16586,0.054421,0.3612,-0.11418,54,35,-21
1055,233,16592,0.054421,0.3612,-0.11418,54,35,-22
1047,208,16589,0.054421,0.3612,-0.11418,54,35,-22
1040,209,16610,0.054421,0.3612,-0.11418,54,35,-22
1047,217,16608,0.054421,0.3612,-0.11418,54,34,-22
1047,214,16609,0.054421,0.3612,-0.11418,55,34,-21
1061,215,16637,0.054421,0.36174,-0.11418,55,34,-21
1058,223,16609,0.054421,0.3612,-0.11418,55,34,-21
1060,223,16618,0.054421,0.36174,-0.11418,55,34,-22
1054,229,16616,0.054421,0.3612,-0.11418,55,34,-22
1056,257,16615,0.054421,0.3612,-0.11418,55,34,-22
1056,222,16587,0.054421,0.3612,-0.11418,55,34,-22
1051,226,16580,0.054421,0.3612,-0.11418,55,34,-22
1048,228,16575,0.054421,0.3612,-0.11418,55,34,-22
1037,233,16567,0.054421,0.3612,-0.11418,55,34,-22
1063,230,16586,0.054421,0.3612,-0.11364,55,34,-22
1058,219,16557,0.054421,0.3612,-0.11364,54,34,-22
1068,223,16564,0.054421,0.3612,-0.11364,54,34,-22
1068,212,16574,0.054421,0.3612,-0.11364,54,34,-22
1068,240,16600,0.054421,0.3612,-0.11364,54,34,-22
1070,242,16604,0.054421,0.3612,-0.11364,54,34,-21
1076,251,16600,0.054421,0.3612,-0.11364,54,34,-22
1075,251,16621,0.054421,0.36067,-0.11364,53,34,-21
1048,258,16629,0.054421,0.3612,-0.11364,54,34,-21
1050,266,16654,0.054421,0.3612,-0.11364,54,34,-21
1048,259,16630,0.054421,0.3612,-0.11364,54,34,-22
1052,272,16633,0.054421,0.36067,-0.11418,54,34,-22
1055,269,16614,0.054421,0.36067,-0.11418,54,34,-22
1052,261,16614,0.054421,0.36067,-0.11418,54,34,-22
1049,259,16625,0.054421,0.3612,-0.11418,54,34,-22
1056,259,16619,0.054421,0.3612,-0.11418,55,34,-22
1058,248,16620,0.054421,0.3612,-0.11418,55,34,-22
1061,245,16624,0.054421,0.3612,-0.11418,55,35,-22
1045,252,16640,0.054421,0.3612,-0.11418,54,35,-22
1036,242,16630,0.054421,0.3612,-0.11418,54,34,-21
1037,243,16641,0.054421,0.3612,-0.11418,54,34,-21
1037,249,16650,0.054421,0.3612,-0.11418,54,34,-21
1041,250,16642,0.054421,0.3612,-0.11418,54,35,-21
1032,249,16639,0.054421,0.3612,-0.11418,54,35,-21
1033,253,16636,0.054421,0.3612,-0.11418,54,35,-21
1029,252,16631,0.054421,0.3612,-0.11418,54,35,-21
1044,243,16620,0.054421,0.3612,-0.11418,54,34,-21
1048,279,16618,0.054421,0.3612,-0.11418,54,35,-22
1049,286,16611,0.054421,0.3612,-0.11418,54,35,-22
1053,290,16604,0.054421,0.3612,-0.11418,54,35,-21
1059,281,16601,0.054421,0.3612,-0.11471,54,34,-21
1062,271,16607,0.054421,0.3612,-0.11471,54,34,-21
1062,272,16597,0.054421,0.3612,-0.11471,54,34,-22
1052,277,16595,0.054421,0.3612,-0.11471,54,34,-22
1050,281,16611,0.054421,0.3612,-0.11418,54,34,-22
