ax,ay,az,gx,gy,gz,mx,my,mz
1149,212,16719,0.053887,0.3612,-0.11364,45,38,-20
1146,225,16640,0.053887,0.3612,-0.11364,44,38,-20
1129,217,16585,0.053887,0.3612,-0.11364,44,38,-20
1131,198,16581,0.053887,0.36067,-0.11364,44,38,-20
1136,181,16578,0.053887,0.36067,-0.11364,44,38,-20
1147,173,16582,0.053887,0.36067,-0.11364,44,38,-20
1132,160,16588,0.054421,0.36067,-0.11364,44,38,-21
1122,158,16588,0.054421,0.36067,-0.11364,44,38,-21
1116,164,16587,0.054421,0.36067,-0.11364,44,38,-21
1116,176,16590,0.054421,0.36067,-0.11364,44,38,-21
1111,179,16593,0.054421,0.36067,-0.11364,44,38,-21
1113,169,16582,0.054421,0.36014,-0.11364,44,38,-20
1112,173,16564,0.054421,0.36014,-0.11364,44,38,-20
1103,177,16562,0.053887,0.36014,-0.11364,44,38,-20
1108,190,16570,0.053887,0.36014,-0.11364,44,38,-20
1122,196,16577,0.053887,0.36014,-0.11364,44,38,-20
1114,199,16572,0.053887,0.36014,-0.11364,44,38,-20
1116,203,16582,0.053887,0.36014,-0.11364,44,38,-20
1113,203,16581,0.053887,0.36067,-0.11364,45,38,-20
1112,209,16596,0.053887,0.36067,-0.11364,45,38,-20
1113,205,16599,0.053887,0.36067,-0.11364,45,38,-21
1111,203,16604,0.053887,0.36067,-0.11364,45,38,-21
1112,205,16599,0.053887,0.36067,-0.11364,45,38,-21
1112,205,16591,0.053887,0.36067,-0.11311,45,38,-21
1117,204,16594,0.053887,0.36067,-0.11364,45,38,-21
1110,194,16583,0.053887,0.36067,-0.11364,45,38,-21
1105,193,16577,0.053887,0.36067,-0.11364,45,37,-21
1096,195,16572,0.053887,0.36067,-0.11364,45,38,-21
1092,202,16566,0.053887,0.36067,-0.11364,45,38,-20
1099,207,16551,0.053887,0.36067,-0.11364,44,38,-20
1089,203,16552,0.053887,0.36067,-0.11364,44,38,-20
1094,194,16560,0.053887,0.36067,-0.11364,44,38,-20
1086,186,16575,0.053887,0.36067,-0.11364,44,38,-20
1095,183,16589,0.053887,0.36067,-0.11364,44,38,-20
1096,178,16583,0.053887,0.36067,-0.11364,45,38,-20
1100,178,16588,0.053887,0.36067,-0.11364,44,38,-20
1100,175,16595,0.053887,0.36067,-0.11364,45,38,-20
1090,172,16608,0.053887,0.36067,-0.11364,45,38,-20
1100,175,16612,0.053887,0.36067,-0.11418,45,38,-20
1089,181,16606,0.053887,0.36067,-0.11364,45,38,-20
1095,182,16596,0.053887,0.36067,-0.11364,44,37,-21
1098,182,16599,0.053887,0.3612,-0.11364,44,37,-21
1108,189,16612,0.053887,0.3612,-0.11364,44,37,-21
1113,190,16602,0.053887,0.3612,-0.11364,44,37,-21
1118,184,16617,0.053887,0.3612,-0.11364,44,37,-21
1123,186,16613,0.053887,0.3612,-0.11311,44,38,-21
1129,186,16597,0.053887,0.3612,-0.11311,44,38,-20
1133,183,16589,0.053887,0.3612,-0.11364,45,38,-21
1141,182,16594,0.053887,0.36067,-0.11364,45,38,-20
1126,180,16584,0.054421,0.36067,-0.11364,45,38,-21
1123,178,16580,0.054421,0.36067,-0.11364,45,38,-21
1113,176,16566,0.054421,0.36067,-0.11364,45,38,-21
1107,175,16567,0.054421,0.36067,-0.11364,45,38,-20
1107,175,16559,0.054421,0.36067,-0.11364,45,38,-21
1103,182,16561,0.054421,0.36067,-0.11364,45,38,-21
1094,184,16559,0.054421,0.36067,-0.11364,45,38,-21
1081,185,16556,0.054421,0.36067,-0.11364,45,38,-20
1088,186,16560,0.054421,0.36067,-0.11311,45,38,-20
1089,190,16559,0.054421,0.36067,-0.11311,45,38,-21
1091,197,16576,0.054421,0.36067,-0.11364,45,38,-20
1099,204,16564,0.054421,0.36067,-0.11364,45,38,-21
1094,199,16564,0.054421,0.36067,-0.11364,45,38,-20
1088,197,16567,0.054421,0.36067,-0.11364,45,38,-20
1089,199,16576,0.054421,0.36067,-0.11364,45,38,-20
1096,202,16562,0.054421,0.36067,-0.11364,44,38,-20
1102,207,16558,0.054421,0.36067,-0.11364,44,38,-20
1096,201,16556,0.054421,0.36067,-0.11364,45,38,-20
1097,200,16562,0.054421,0.36067,-0.11311,44,38,-20
1092,204,16560,0.053887,0.36067,-0.11311,44,38,-20
1090,196,16565,0.053887,0.36067,-0.11311,44,38,-20
1089,198,16567,0.054421,0.36067,-0.11311,44,38,-20
1088,201,16551,0.054421,0.36067,-0.11311,44,38,-21
1087,206,16562,0.054421,0.36067,-0.11311,44,38,-21
1080,204,16570,0.054421,0.36067,-0.11311,44,37,-21
1085,203,16564,0.054421,0.36067,-0.11364,44,37,-20
1090,202,16567,0.054421,0.36067,-0.11364,45,37,-20
1092,203,16583,0.054421,0.36067,-0.11364,45,37,-21
1093,206,16574,0.054421,0.36067,-0.11364,45,38,-21
1101,199,16573,0.054421,0.36067,-0.11364,45,37,-20
1109,196,16606,0.054421,0.36067,-0.11418,45,37,-20
1113,187,16620,0.054421,0.36067,-0.11364,45,38,-20
1116,186,16619,0.054421,0.36067,-0.11364,45,38,-20
1119,190,16608,0.054421,0.36067,-0.11364,45,38,-20
1125,187,16595,0.054421,0.36067,-0.11364,45,38,-20
1119,179,16583,0.054421,0.36067,-0.11364,45,38,-20
1130,184,16596,0.054421,0.3612,-0.11364,44,38,-20
1126,181,16603,0.054421,0.3612,-0.11364,45,38,-20
1130,178,16586,0.054421,0.36067,-0.11364,45,38,-20
1119,183,16571,0.054421,0.3612,-0.11364,44,38,-20
1116,188,16568,0.053887,0.3612,-0.11364,44,37,-20
1110,185,16574,0.053887,0.3612,-0.11364,44,37,-20
1108,187,16579,0.053887,0.3612,-0.11364,44,37,-20
1111,187,16580,0.053887,0.3612,-0.11364,44,37,-20
1109,189,16572,0.054421,0.3612,-0.11364,44,37,-21
1112,193,16568,0.054421,0.3612,-0.11364,44,37,-21
1114,191,16565,0.053887,0.3612,-0.11364,44,37,-21
1121,189,16560,0.053887,0.3612,-0.11364,44,37,-21
1120,191,16555,0.054421,0.3612,-0.11311,44,38,-21
1115,196,16566,0.054421,0.36067,-0.11311,44,38,-21
1112,192,16549,0.054421,0.3612,-0.11311,44,38,-20
1117,190,16549,0.054421,0.3612,-0.11364,44,38,-20
1111,187,16547,0.054421,0.3612,-0.11364,45,38,-20
1101,193,16547,0.054421,0.36067,-0.11364,45,38,-20
1092,195,16534,0.054421,0.36067,-0.11311,45,38,-20
1088,191,16538,0.054954,0.36067,-0.11364,45,38,-20
1093,189,16545,0.054954,0.36067,-0.11364,44,38,-20
1095,187,16541,0.054421,0.36067,-0.11364,44,38,-20
1090,188,16560,0.054421,0.36067,-0.11364,44,38,-20
1089,188,16552,0.054421,0.36067,-0.11364,44,38,-20
1098,191,16550,0.054421,0.3612,-0.11364,44,38,-20
1106,181,16556,0.053887,0.3612,-0.11364,44,38,-21
1106,180,16568,0.053887,0.36067,-0.11364,44,38,-21
1112,192,16554,0.053887,0.36067,-0.11364,44,38,-21
1121,191,16553,0.053887,0.36067,-0.11364,44,38,-21
1124,194,16561,0.053887,0.36067,-0.11364,44,38,-21
1128,192,16552,0.053887,0.36067,-0.11364,44,38,-21
1127,189,16552,0.053887,0.36067,-0.11364,44,38,-20
1119,186,16550,0.053887,0.36014,-0.11364,44,38,-20
1114,191,16534,0.053887,0.36014,-0.11364,45,37,-20
1118,189,16532,0.053887,0.36067,-0.11364,45,38,-20
1113,184,16543,0.053887,0.36067,-0.11364,45,38,-20
1107,173,16541,0.053887,0.36067,-0.11364,44,38,-20
1107,171,16534,0.053887,0.36067,-0.11364,45,38,-20
1103,171,16547,0.053887,0.36067,-0.11364,45,37,-20
1105,178,16560,0.053887,0.36067,-0.11311,45,38,-20
1106,174,16574,0.053887,0.36067,-0.11364,45,37,-20
1100,167,16585,0.053887,0.36067,-0.11364,45,38,-20
1097,172,16578,0.053887,0.36067,-0.11364,45,37,-20
1103,167,16586,0.053887,0.36067,-0.11364,45,38,-20
1102,170,16571,0.053887,0.36067,-0.11364,45,38,-20
1100,171,16577,0.053887,0.36067,-0.11364,45,38,-20
1103,171,16564,0.053887,0.36067,-0.11364,45,38,-20
1094,169,16555,0.054421,0.36067,-0.11364,45,38,-20
1100,188,16542,0.053887,0.36067,-0.12378,45,38,-20
1102,202,16544,0.053887,0.36014,-0.13872,44,38,-20
1106,216,16554,0.055488,0.35907,-0.14566,44,38,-20
1096,221,16528,0.056021,0.3596,-0.15313,44,38,-20
1094,222,16561,0.054954,0.36227,-0.15419,44,38,-20
1022,209,16537,0.055488,0.39055,-0.14139,44,38,-20
1036,246,16582,0.057622,0.41776,-0.11044,44,38,-21
988,261,16597,0.057622,0.45831,-0.10084,44,38,-20
874,246,16641,0.058155,0.52607,-0.095503,44,38,-20
680,224,16655,0.058689,0.60503,-0.088567,45,37,-21
456,220,16688,0.057088,0.68773,-0.085366,45,37,-21
148,220,16712,0.057088,0.79177,-0.086966,46,37,-21
-268,233,16659,0.059756,0.91181,-0.093902,47,37,-21
-693,234,16659,0.059223,0.99611,-0.089101,48,37,-21
-1289,202,16591,0.055488,1.0879,-0.11098,49,37,-21
-1901,189,16533,0.053354,1.2021,-0.11418,50,38,-21
-2638,206,16315,0.051753,1.3397,-0.10404,51,38,-21
-3467,230,16042,0.048018,1.455,-0.0875,52,39,-21
-4358,212,15754,0.042683,1.5334,-0.072027,54,39,-20
-5237,215,15438,0.033613,1.5595,-0.046951,56,39,-20
-6048,211,15139,0.029345,1.5606,-0.033613,58,39,-19
-6868,224,14806,0.02721,1.5777,-0.048018,59,38,-18
-7714,218,14368,0.021341,1.6225,-0.044284,61,38,-18
-8549,222,13878,0.017607,1.6166,-0.042149,62,38,-17
-9325,207,13392,0.009604,1.5547,-0.03628,64,38,-16
-9943,207,12948,0.009604,1.4843,-0.040549,65,38,-15
-10527,230,12458,0.009604,1.4502,-0.042683,66,38,-14
-11094,237,11934,0.006936,1.4368,-0.044284,67,38,-12
-11671,244,11381,-0.004268,1.4176,-0.03628,69,38,-11
-12212,254,10789,-0.01654,1.3963,-0.028277,70,38,-10
-12664,274,10175,-0.02561,1.3611,-0.029345,71,38,-8
-13117,288,9565,-0.017607,1.3408,-0.037348,72,38,-7
-13494,307,9015,-0.000534,1.3157,-0.049085,73,37,-6
-13846,328,8439,0.004268,1.289,-0.05282,73,37,-5
-14193,325,7873,0.001601,1.2469,-0.059223,74,37,-3
-14468,333,7347,0.005335,1.2037,-0.069893,74,37,-2
-14754,327,6782,0.012805,1.1802,-0.080564,74,37,0
-14960,336,6271,0.022409,1.1535,-0.090168,75,37,1
-15204,337,5749,0.028277,1.122,-0.097104,75,37,3
-15347,339,5271,0.00747,1.0932,-0.091768,75,37,4
-15502,338,4743,-0.019741,1.0895,-0.085899,75,37,5
-15621,318,4255,-0.03468,1.1002,-0.084299,76,37,7
-15767,316,3625,-0.029345,1.1247,-0.086966,76,37,9
-15913,328,3018,-0.018674,1.1322,-0.090168,76,37,10
-15986,334,2483,-0.013338,1.1023,-0.092302,76,37,11
-16099,322,1971,-0.011204,1.0399,-0.093369,76,37,12
-16129,320,1594,-0.003201,0.94756,-0.09657,77,37,13
-16207,311,1243,0.010671,0.84939,-0.10191,77,37,13
-16215,310,1020,0.028811,0.73468,-0.10671,77,37,14
-16260,314,803,0.041082,0.62797,-0.10884,77,37,14
-16237,320,746,0.04375,0.52073,-0.10938,77,37,14
-16218,316,735,0.040015,0.4391,-0.10991,77,37,14
-16220,315,735,0.041616,0.38842,-0.11098,77,37,14
-16210,321,717,0.04375,0.36921,-0.11151,77,37,14
-16220,323,696,0.045351,0.36654,-0.11204,76,37,14
-16216,325,691,0.049619,0.36387,-0.11311,76,37,14
-16210,326,672,0.050152,0.36547,-0.11311,76,37,14
-16198,334,672,0.050686,0.3628,-0.11311,76,37,14
-16199,328,699,0.051753,0.36334,-0.11364,76,37,13
-16195,317,687,0.050686,0.36387,-0.11364,77,37,14
-16197,322,682,0.050152,0.36334,-0.11364,76,37,14
-16197,320,682,0.050152,0.36174,-0.11364,76,37,14
-16198,308,702,0.050686,0.3596,-0.11364,77,37,14
-16193,305,700,0.051753,0.358,-0.11364,76,38,14
-16201,308,715,0.052287,0.35427,-0.11364,76,38,14
-16221,293,698,0.053354,0.35213,-0.11364,77,38,14
-16228,294,677,0.052287,0.34787,-0.11311,76,38,14
-16222,312,689,0.055488,0.33079,-0.11311,76,38,14
-16221,312,724,0.057622,0.30732,-0.11364,77,38,13
-16236,318,759,0.059223,0.2657,-0.11418,77,38,13
-16255,328,832,0.057088,0.19474,-0.11418,77,38,13
-16228,326,1052,0.054421,0.08003,-0.11418,77,38,12
-16186,318,1395,0.054954,-0.054421,-0.11471,77,38,11
-16109,329,1832,0.054421,-0.18727,-0.11578,77,38,10
-15995,328,2390,0.059223,-0.30412,-0.11791,77,38,9
-15904,314,2982,0.070427,-0.39588,-0.12325,77,38,8
-15778,312,3625,0.081631,-0.48178,-0.12858,77,38,6
-15605,311,4321,0.092302,-0.55541,-0.13392,76,38,5
-15371,315,5070,0.10244,-0.61303,-0.13819,76,38,3
-15102,314,5849,0.11951,-0.64131,-0.14832,75,38,1
-14834,326,6509,0.13765,-0.63598,-0.15899,75,38,0
-14515,321,7184,0.14405,-0.61463,-0.16326,74,38,-2
-14243,317,7749,0.14245,-0.58582,-0.1638,74,38,-3
-13897,310,8341,0.13338,-0.57035,-0.1622,73,38,-5
-13563,313,8897,0.12271,-0.55114,-0.15846,72,38,-6
-13214,313,9454,0.11098,-0.51967,-0.15419,72,38,-8
-12871,307,9970,0.10244,-0.48658,-0.15046,71,38,-9
-12548,317,10349,0.086966,-0.45244,-0.14139,70,38,-10
-12165,313,10798,0.068826,-0.44017,-0.13125,70,38,-11
-11764,317,11260,0.062424,-0.45511,-0.12805,69,38,-12
-11302,326,11714,0.06189,-0.48232,-0.12965,68,38,-13
-10878,328,12114,0.061357,-0.51593,-0.13285,67,38,-14
-10336,317,12593,0.06189,-0.57675,-0.13605,66,37,-15
-9697,302,13068,0.063491,-0.66425,-0.13979,64,37,-16
-8971,300,13581,0.063491,-0.74162,-0.14139,63,37,-17
-8258,286,14101,0.064024,-0.79977,-0.14245,62,37,-17
-7484,292,14509,0.063491,-0.84619,-0.14299,60,37,-18
-6639,282,14898,0.062957,-0.88834,-0.14245,59,38,-19
-5718,269,15305,0.059756,-0.93209,-0.13872,57,38,-20
-4692,261,15743,0.055488,-0.96463,-0.13338,55,38,-20
-3769,230,16019,0.053887,-0.97637,-0.12912,54,38,-20
-2740,237,16332,0.05282,-0.96944,-0.12325,53,38,-20
-1855,237,16499,0.05122,-0.8734,-0.12058,51,38,-20
-1030,241,16580,0.050686,-0.73895,-0.11844,50,38,-20
-325,220,16689,0.050152,-0.58902,-0.11685,49,38,-21
211,216,16727,0.050686,-0.42096,-0.11578,49,38,-21
619,216,16733,0.05122,-0.26037,-0.11418,48,38,-20
890,218,16689,0.051753,-0.10137,-0.11364,47,38,-21
1135,245,16694,0.05122,0.059223,-0.11311,47,38,-21
1137,271,16607,0.050686,0.22515,-0.11364,47,38,-21
1148,263,16579,0.051753,0.30251,-0.11364,47,38,-21
1164,262,16587,0.05282,0.33613,-0.11364,47,38,-21
1162,263,16586,0.053887,0.35107,-0.11364,47,38,-21
1159,265,16584,0.053887,0.35534,-0.11364,47,38,-20
1156,260,16566,0.053887,0.35694,-0.11364,47,38,-21
1158,263,16561,0.053354,0.35747,-0.11364,47,37,-20
1166,271,16558,0.053354,0.358,-0.11364,47,37,-21
1162,244,16545,0.052287,0.35854,-0.12111,47,37,-21
1172,241,16530,0.044284,0.36547,-0.16166,47,37,-21
1164,237,16526,0.037348,0.36867,-0.22355,46,37,-20
1157,238,16532,0.03468,0.36974,-0.2561,46,37,-20
1150,233,16528,0.034146,0.37027,-0.26357,45,37,-20
1143,234,16548,0.034146,0.37027,-0.26517,45,37,-20
1136,223,16555,0.03468,0.37081,-0.26517,45,37,-20
1117,212,16562,0.03468,0.37081,-0.26517,44,37,-20
1112,208,16584,0.035747,0.37081,-0.25823,44,37,-20
1090,200,16581,0.04375,0.36441,-0.21768,43,37,-20
1086,187,16576,0.05122,0.36174,-0.15579,44,37,-20
1093,176,16587,0.053354,0.36067,-0.12325,44,37,-20
1093,169,16590,0.053887,0.36067,-0.11578,44,37,-20
1099,166,16596,0.054421,0.36067,-0.11418,44,37,-20
1100,165,16597,0.054421,0.36067,-0.11364,44,37,-20
1110,163,16588,0.054421,0.36067,-0.11364,44,37,-20
1107,156,16578,0.054421,0.36067,-0.11364,44,38,-20
1105,167,16582,0.054421,0.36067,-0.11364,44,38,-20
1110,177,16587,0.054421,0.3612,-0.11364,44,38,-20
1097,187,16580,0.054421,0.3612,-0.11364,44,38,-20
1106,189,16566,0.054421,0.3612,-0.11364,44,37,-20
1102,188,16556,0.054421,0.3612,-0.11364,44,38,-20
1099,178,16555,0.053887,0.36067,-0.11364,44,38,-20
1099,180,16565,0.053887,0.36067,-0.11364,44,38,-20
1105,183,16560,0.054421,0.3612,-0.11364,44,38,-20
1108,185,16549,0.054421,0.36067,-0.11364,44,38,-20
1109,178,16549,0.054421,0.36067,-0.11364,44,38,-20
1110,175,16549,0.054421,0.36067,-0.11364,44,38,-20
1106,185,16558,0.054421,0.36067,-0.11364,44,38,-21
1103,179,16559,0.054421,0.36067,-0.11364,44,38,-21
1111,182,16556,0.054421,0.36067,-0.11364,44,38,-21
1115,176,16549,0.054421,0.36067,-0.11364,44,37,-21
1113,177,16560,0.054421,0.36067,-0.11364,44,37,-21
1109,180,16574,0.054421,0.36067,-0.11364,44,37,-20
1113,190,16574,0.053887,0.36014,-0.11364,44,37,-20
1115,186,16560,0.053887,0.36067,-0.11364,44,37,-20
1116,191,16551,0.053887,0.36067,-0.11364,44,38,-20
1125,198,16551,0.053887,0.36067,-0.11418,44,38,-20
1126,202,16556,0.053887,0.36067,-0.11418,44,38,-19
1113,200,16557,0.053887,0.36067,-0.11418,44,38,-19
1116,200,16547,0.053887,0.36067,-0.11418,44,38,-20
1113,194,16548,0.053887,0.36067,-0.11418,44,38,-20
1109,198,16530,0.053887,0.36067,-0.11418,44,38,-20
1105,203,16540,0.053887,0.36067,-0.11418,44,38,-20
1096,196,16563,0.053887,0.36067,-0.11418,44,38,-20
1096,199,16573,0.054421,0.36067,-0.11364,45,38,-20
1096,202,16561,0.054421,0.36067,-0.11364,45,38,-20
1100,203,16526,0.054421,0.36067,-0.11364,44,38,-20
1092,199,16521,0.054421,0.36067,-0.11364,44,38,-20
1094,195,16527,0.054421,0.36067,-0.11364,44,38,-20
1101,185,16550,0.054421,0.36067,-0.11364,44,38,-20
1112,180,16562,0.054421,0.36067,-0.11364,44,38,-20
1118,177,16550,0.054421,0.3612,-0.11364,44,38,-20
1118,182,16541,0.054421,0.3612,-0.11364,44,38,-20
1117,170,16552,0.053887,0.3612,-0.11364,44,38,-19
1105,176,16592,0.053887,0.3612,-0.11364,43,38,-20
1101,175,16600,0.053887,0.3612,-0.11364,43,38,-20
1107,177,16581,0.054421,0.3612,-0.11364,43,38,-20
1095,173,16581,0.054421,0.36067,-0.11364,43,38,-19
1104,178,16565,0.054421,0.36067,-0.11364,43,37,-19
1105,182,16578,0.054421,0.36067,-0.11364,44,38,-20
1097,180,16583,0.054421,0.36067,-0.11364,43,37,-20
1096,189,16602,0.054421,0.36067,-0.11364,43,37,-20
1109,184,16597,0.054421,0.36067,-0.11364,43,37,-21
1123,179,16611,0.054421,0.36067,-0.11364,44,37,-21
1120,184,16622,0.054421,0.36067,-0.11364,44,37,-21
1132,189,16615,0.054421,0.36067,-0.11364,44,37,-21
1118,191,16618,0.054421,0.36067,-0.11364,44,38,-21
1116,191,16592,0.054421,0.36067,-0.11364,44,38,-21
1121,202,16605,0.054421,0.36067,-0.11364,44,38,-21
1116,200,16605,0.054421,0.36067,-0.11364,44,38,-20
1115,198,16598,0.054421,0.36067,-0.11364,44,38,-20
1109,200,16591,0.054421,0.36067,-0.11364,43,38,-20
1103,192,16584,0.054421,0.36067,-0.11364,43,38,-20
1097,182,16585,0.054421,0.36067,-0.11364,44,38,-21
1089,179,16588,0.053887,0.36067,-0.11364,43,38,-20
1093,167,16603,0.053887,0.36067,-0.11364,44,37,-20
1095,150,16569,0.053887,0.36067,-0.11364,44,37,-20
1096,150,16544,0.054421,0.36067,-0.11364,44,38,-20
1093,158,16545,0.053887,0.3612,-0.11364,44,38,-20
1101,154,16539,0.053887,0.36067,-0.11364,44,38,-20
1104,160,16554,0.053887,0.36067,-0.11364,44,38,-20
1099,162,16550,0.053887,0.36067,-0.11364,44,38,-20
1106,159,16544,0.053887,0.36067,-0.11364,44,38,-20
1098,168,16539,0.053887,0.36067,-0.11364,44,38,-20
1091,168,16559,0.054421,0.36067,-0.11364,44,38,-20
1088,170,16563,0.054421,0.36067,-0.11364,44,38,-20
1095,175,16569,0.054421,0.36067,-0.11364,44,38,-20
1089,181,16579,0.054421,0.36067,-0.11364,44,38,-20
1099,179,16574,0.054421,0.36067,-0.11364,44,38,-20
1104,181,16573,0.054421,0.36067,-0.11418,44,38,-20
1112,179,16575,0.054421,0.36067,-0.11418,44,38,-20
1120,181,16579,0.054421,0.36067,-0.11418,44,38,-20
1125,191,16570,0.054421,0.36067,-0.11418,44,38,-20
1125,196,16577,0.054421,0.36067,-0.11418,44,37,-20
1126,195,16582,0.054421,0.36067,-0.11418,44,38,-20
1121,190,16567,0.053887,0.36067,-0.11418,44,38,-20
1107,192,16558,0.053887,0.36067,-0.11418,44,38,-20
1105,197,16563,0.053887,0.36067,-0.11364,44,38,-20
1101,203,16559,0.054421,0.36067,-0.11364,44,38,-20
1104,200,16560,0.054421,0.36067,-0.11364,44,38,-20
1104,185,16570,0.053887,0.36067,-0.11364,44,38,-20
1102,174,16548,0.053887,0.36067,-0.11364,45,38,-20
1102,167,16551,0.054421,0.36067,-0.11364,45,38,-20
1100,182,16539,0.054421,0.36067,-0.11364,45,37,-20
1105,180,16554,0.054421,0.36067,-0.11364,45,38,-20
1111,181,16547,0.054421,0.36067,-0.11364,45,37,-20
1112,187,16543,0.053887,0.36067,-0.11364,45,37,-20
1102,181,16541,0.053887,0.36067,-0.11364,45,37,-20
1101,191,16539,0.054421,0.36067,-0.11311,45,37,-20
1101,203,16555,0.054421,0.36067,-0.11364,44,37,-20
1095,210,16533,0.053887,0.36067,-0.11364,44,37,-20
1106,211,16547,0.053887,0.36067,-0.11364,44,37,-20
1110,210,16534,0.053887,0.36067,-0.11311,44,37,-20
1109,211,16538,0.053887,0.36067,-0.11311,44,37,-20
1100,207,16547,0.053887,0.36067,-0.11364,44,37,-20
1110,213,16548,0.053887,0.36067,-0.11364,44,37,-20
1120,211,16554,0.053887,0.36067,-0.11364,44,37,-20
1126,200,16539,0.053887,0.36067,-0.11364,44,37,-20
1126,198,16551,0.053887,0.36067,-0.11364,44,38,-20
1119,186,16556,0.054421,0.36067,-0.11364,44,38,-20
1121,195,16561,0.054421,0.36067,-0.11364,44,38,-21
1111,187,16560,0.054421,0.36067,-0.11364,44,38,-20
1109,186,16557,0.054421,0.36067,-0.11364,44,38,-20
1109,183,16555,0.054421,0.36067,-0.11364,44,38,-20
1095,173,16546,0.054421,0.3612,-0.11418,44,38,-20
1101,181,16564,0.054421,0.3612,-0.11364,44,38,-20
1105,176,16566,0.054421,0.3612,-0.11364,44,38,-20
1109,169,16557,0.054421,0.3612,-0.11364,44,38,-20
1109,168,16563,0.054421,0.3612,-0.11364,44,38,-20
1112,176,16554,0.054421,0.3612,-0.11364,44,38,-20
1118,179,16547,0.054421,0.3612,-0.11418,44,38,-21
1110,190,16538,0.054421,0.36067,-0.11364,44,38,-20
1119,193,16546,0.054421,0.36067,-0.11364,44,38,-20
1117,196,16545,0.054421,0.36067,-0.11364,44,38,-20
1118,193,16551,0.053887,0.36067,-0.11364,44,38,-20
1116,203,16555,0.053887,0.36067,-0.11364,44,38,-20
1111,189,16551,0.053887,0.36067,-0.11364,44,38,-20
1108,187,16573,0.053887,0.36067,-0.11364,44,38,-20
1108,183,16578,0.053887,0.36067,-0.11364,44,38,-20
1112,178,16589,0.053887,0.36067,-0.11364,44,38,-20
1107,181,16587,0.053887,0.36067,-0.11364,44,38,-20
1102,175,16595,0.054421,0.36067,-0.11364,44,38,-20
1095,172,16598,0.054421,0.36067,-0.11364,44,38,-20
1095,170,16586,0.054421,0.36067,-0.11364,44,38,-20
1093,180,16578,0.054421,0.36067,-0.11364,44,38,-21
1100,177,16570,0.054421,0.36067,-0.11364,43,38,-21
1106,177,16578,0.054421,0.36067,-0.11364,43,38,-21
1104,181,16571,0.054421,0.36067,-0.11364,43,38,-21
